# http://www.astro.ucla.edu/~wright/WISE/passbands.html
# wavelength in micron
#wave   response   
25300.0   3.815e-09   
25400.0   1.454e-06   
25500.0   1.952e-07   
25600.0   4.021e-07   
25700.0   5.978e-07   
25800.0   4.581e-07   
25900.0   1.595e-06   
26000.0   2.974e-07   
26100.0   1.156e-07   
26200.0   1.228e-07   
26300.0   9.679e-08   
26400.0   1.387e-11   
26500.0   7.739e-12   
26600.0   4.18e-08   
26700.0   7.554e-08   
26800.0   9.131e-08   
26900.0   4.344e-08   
27000.0   1.129e-07   
27100.0   8.133e-08   
27200.0   2.608e-07   
27300.0   7.122e-08   
27400.0   6.299e-08   
27500.0   4.366e-08   
27600.0   3.312e-08   
27700.0   6.054e-08   
27800.0   3.128e-08   
27900.0   7.592e-08   
28000.0   3.75e-08   
28100.0   3.865e-08   
28200.0   3.727e-08   
28300.0   3.875e-08   
28400.0   4.464e-08   
28500.0   4.465e-08   
28600.0   1.061e-07   
28700.0   3.697e-08   
28800.0   3.174e-08   
28900.0   1.893e-08   
29000.0   3.169e-08   
29100.0   1.713e-08   
29200.0   1.792e-08   
29300.0   1.693e-08   
29400.0   6.874e-08   
29500.0   6.548e-09   
29600.0   4.52e-08   
29700.0   5.662e-09   
29800.0   2.811e-09   
29900.0   1.758e-09   
30000.0   9.501e-10   
30100.0   2.197e-17   
30200.0   1.072e-09   
30300.0   1.623e-09   
30400.0   1.26e-09   
30500.0   1.756e-09   
30600.0   1.077e-09   
30700.0   1.211e-09   
30800.0   1.138e-08   
30900.0   3.877e-10   
31000.0   1.037e-08   
31100.0   8.532e-10   
31200.0   1.045e-10   
31300.0   6.195e-15   
31400.0   7.014e-18   
31500.0   1.315e-14   
31600.0   1.722e-14   
31700.0   4.593e-10   
31800.0   3.217e-14   
31900.0   5.841e-17   
32000.0   1.592e-14   
32100.0   3.204e-09   
32200.0   4.091e-09   
32300.0   5.903e-09   
32400.0   2.095e-08   
32500.0   6.134e-09   
32600.0   6.733e-09   
32700.0   5.476e-09   
32800.0   4.994e-09   
32900.0   5.973e-09   
33000.0   2.544e-09   
33100.0   1.268e-13   
33200.0   1.428e-13   
33300.0   3.04e-13   
33400.0   4.681e-13   
33500.0   4.736e-13   
33600.0   6.344e-13   
33700.0   5.57e-13   
33800.0   9.504e-13   
33900.0   6.956e-13   
34000.0   1.019e-12   
34100.0   8.627e-13   
34200.0   1.199e-12   
34300.0   1.353e-08   
34400.0   1.35e-08   
34500.0   4.552e-08   
34600.0   6.343e-08   
34700.0   8.753e-08   
34800.0   7.258e-08   
34900.0   4.312e-07   
35000.0   1.07e-07   
35100.0   1.388e-07   
35200.0   1.248e-07   
35300.0   1.356e-07   
35400.0   1.176e-07   
35500.0   2.025e-07   
35600.0   3.213e-07   
35700.0   2.01e-06   
35800.0   5.583e-07   
35900.0   8.224e-07   
36000.0   6.562e-07   
36100.0   1.133e-06   
36200.0   1.17e-06   
36300.0   1.371e-06   
36400.0   1.067e-06   
36500.0   1.07e-06   
36600.0   6.888e-07   
36700.0   1.192e-06   
36800.0   4.198e-10   
36900.0   1.148e-08   
37000.0   1.137e-08   
37100.0   1.438e-08   
37200.0   2.673e-08   
37300.0   3.369e-08   
37400.0   4.709e-08   
37500.0   1.17e-07   
37600.0   8.649e-08   
37700.0   1.24e-07   
37800.0   3.03e-07   
37900.0   3.583e-07   
38000.0   1.299e-06   
38100.0   2.109e-06   
38200.0   3.557e-06   
38300.0   4.67e-06   
38400.0   6.963e-06   
38500.0   1.16e-05   
38600.0   1.833e-05   
38700.0   2.13e-05   
38800.0   4.559e-05   
38900.0   9.741e-05   
39000.0   0.0001387   
39100.0   0.0002   
39200.0   0.0003728   
39300.0   0.0005062   
39400.0   0.0003919   
39500.0   0.001163   
39600.0   0.008188   
39700.0   0.01012   
39800.0   0.01276   
39900.0   0.01638   
40000.0   0.02137   
40100.0   0.03005   
40200.0   0.04402   
40300.0   0.06517   
40400.0   0.09531   
40500.0   0.1357   
40600.0   0.1937   
40700.0   0.2636   
40800.0   0.3407   
40900.0   0.4227   
41000.0   0.5028   
41100.0   0.5729   
41200.0   0.63   
41300.0   0.676   
41400.0   0.709   
41500.0   0.728   
41600.0   0.741   
41700.0   0.748   
41800.0   0.75   
41900.0   0.748   
42000.0   0.745   
42100.0   0.739   
42200.0   0.732   
42300.0   0.725   
42400.0   0.724   
42500.0   0.725   
42600.0   0.724   
42700.0   0.72   
42800.0   0.718   
42900.0   0.719   
43000.0   0.723   
43100.0   0.727   
43200.0   0.731   
43300.0   0.733   
43400.0   0.734   
43500.0   0.733   
43600.0   0.729   
43700.0   0.725   
43800.0   0.719   
43900.0   0.711   
44000.0   0.704   
44100.0   0.698   
44200.0   0.692   
44300.0   0.688   
44400.0   0.683   
44500.0   0.68   
44600.0   0.679   
44700.0   0.681   
44800.0   0.686   
44900.0   0.693   
45000.0   0.701   
45100.0   0.711   
45200.0   0.719   
45300.0   0.728   
45400.0   0.735   
45500.0   0.74   
45600.0   0.744   
45700.0   0.746   
45800.0   0.747   
45900.0   0.745   
46000.0   0.742   
46100.0   0.738   
46200.0   0.732   
46300.0   0.726   
46400.0   0.719   
46500.0   0.712   
46600.0   0.705   
46700.0   0.701   
46800.0   0.697   
46900.0   0.695   
47000.0   0.693   
47100.0   0.694   
47200.0   0.696   
47300.0   0.699   
47400.0   0.705   
47500.0   0.709   
47600.0   0.715   
47700.0   0.719   
47800.0   0.722   
47900.0   0.722   
48000.0   0.722   
48100.0   0.72   
48200.0   0.718   
48300.0   0.717   
48400.0   0.715   
48500.0   0.714   
48600.0   0.713   
48700.0   0.712   
48800.0   0.712   
48900.0   0.712   
49000.0   0.712   
49100.0   0.711   
49200.0   0.711   
49300.0   0.71   
49400.0   0.708   
49500.0   0.705   
49600.0   0.702   
49700.0   0.698   
49800.0   0.693   
49900.0   0.688   
50000.0   0.68   
50100.0   0.673   
50200.0   0.664   
50300.0   0.655   
50400.0   0.646   
50500.0   0.637   
50600.0   0.628   
50700.0   0.619   
50800.0   0.611   
50900.0   0.603   
51000.0   0.595   
51100.0   0.585   
51200.0   0.575   
51300.0   0.56   
51400.0   0.544   
51500.0   0.519   
51600.0   0.493   
51700.0   0.458   
51800.0   0.419   
51900.0   0.375   
52000.0   0.3269   
52100.0   0.2799   
52200.0   0.2328   
52300.0   0.1898   
52400.0   0.1507   
52500.0   0.1167   
52600.0   0.09014   
52700.0   0.06592   
52800.0   0.05034   
52900.0   0.03521   
53000.0   0.02691   
53100.0   0.01866   
53200.0   0.01387   
53300.0   0.009652   
53400.0   0.00684   
53500.0   0.004735   
53600.0   0.002642   
53700.0   0.001987   
53800.0   0.001481   
53900.0   0.001126   
54000.0   0.0008357   
54100.0   0.0006295   
54200.0   0.0004771   
54300.0   0.0003538   
54400.0   0.0002516   
54500.0   0.0001988   
54600.0   0.0001381   
54700.0   0.0001783   
54800.0   0.0002014   
54900.0   0.0001999   
55000.0   0.000165   
55100.0   0.000143   
55200.0   0.0001239   
55300.0   9.502e-05   
55400.0   8.424e-05   
55500.0   6.574e-05   
55600.0   3.81e-05   
55700.0   3.605e-05   
55800.0   2.997e-05   
55900.0   2.235e-05   
56000.0   1.743e-05   
56100.0   8.032e-06   
56200.0   1.144e-05   
56300.0   1.104e-05   
56400.0   7.084e-06   
56500.0   5.876e-06   
56600.0   4.446e-06   
56700.0   1.853e-06   
56800.0   5.072e-08   
56900.0   1.168e-07   
57000.0   1.016e-07   
57100.0   1.63e-05   
57200.0   3e-05   
57300.0   1.986e-08   
57400.0   2.196e-08   
57500.0   8.401e-08   
57600.0   1.195e-07   
57700.0   2.68e-05   
57800.0   9.123e-09   
57900.0   3.67e-05   
58000.0   3.17e-05   
58100.0   2.85e-05   
58200.0   1.733e-08   
58300.0   2.67e-05   
58400.0   3.26e-05   
58500.0   1.691e-08   
58600.0   3.22e-05   
58700.0   2.45e-05   
58800.0   1.72e-05   
58900.0   7.73e-06   
59000.0   5.87e-06   
59100.0   4.46e-06   
59200.0   3.19e-06   
59300.0   2.54e-06   
59400.0   2.27e-06   
59500.0   2.09e-06   
59600.0   1.9e-06   
59700.0   9.702e-07   
59800.0   7.5e-07   
59900.0   6.644e-07   
60000.0   5.954e-07   
60100.0   6.489e-07   
60200.0   5.37e-07   
60300.0   4.288e-07   
60400.0   3.309e-07   
60500.0   2.65e-07   
60600.0   2.286e-07   
60700.0   2.166e-07   
60800.0   2.128e-07   
60900.0   2.258e-07   
61000.0   2.325e-07   
61100.0   2.466e-07   
61200.0   2.556e-07   
61300.0   2.556e-07   
61400.0   2.545e-07   
61500.0   2.399e-07   
61600.0   2.425e-07   
61700.0   2.271e-07   
61800.0   2.02e-07   
61900.0   1.89e-07   
62000.0   1.841e-07   
62100.0   1.731e-07   
62200.0   1.76e-07   
62300.0   1.876e-07   
62400.0   1.975e-07   
62500.0   2.041e-07   
62600.0   2.362e-07   
62700.0   2.251e-07   
62800.0   2.349e-07   
62900.0   2.198e-07   
63000.0   2.07e-07   
63100.0   1.946e-07   
63200.0   1.808e-07   
63300.0   1.89e-07   
63400.0   2.088e-07   
63500.0   2.207e-07   
63600.0   2.219e-07   
63700.0   2.097e-07   
63800.0   2.273e-07   
63900.0   2.304e-07   
64000.0   2.252e-07   
64100.0   2.237e-07   
64200.0   2.284e-07   
64300.0   2.282e-07   
64400.0   2.236e-07   
64500.0   2.361e-07   
64600.0   2.242e-07   
64700.0   2.194e-07   
64800.0   2.137e-07   
64900.0   2.114e-07   
65000.0   2.063e-07   
65100.0   2.011e-07   
65200.0   1.982e-07   
65300.0   2.01e-07   
65400.0   1.936e-07   
65500.0   1.805e-07   
65600.0   1.679e-07   
65700.0   1.533e-07   
65800.0   1.425e-07   
65900.0   1.335e-07   
66000.0   1.218e-07   
66100.0   1.122e-07   
66200.0   1.076e-07   
66300.0   1.002e-07   
66400.0   1.077e-07   
66500.0   1.138e-07   
66600.0   1.232e-07   
66700.0   1.323e-07   
66800.0   1.371e-07   
66900.0   1.454e-07   
67000.0   1.451e-07   
67100.0   1.432e-07   
67200.0   1.151e-07   
67300.0   1.4e-07   
67400.0   1.384e-07   
67500.0   1.374e-07   
67600.0   1.343e-07   
67700.0   1.306e-07   
67800.0   1.035e-07   
67900.0   1.056e-07   
68000.0   1.172e-07   
68100.0   1.148e-07   
68200.0   1.009e-07   
68300.0   9.148e-08   
68400.0   9.707e-08   
68500.0   9.049e-08   
68600.0   8.169e-08   
68700.0   7.705e-08   
68800.0   7.573e-08   
68900.0   7.853e-08   
69000.0   8.107e-08   
69100.0   8.167e-08   
69200.0   7.8e-08   
69300.0   7.863e-08   
69400.0   8.001e-08   
69500.0   7.646e-08   
69600.0   8.19e-08   
69700.0   8.515e-08   
69800.0   9.894e-08   
69900.0   1.009e-07   
70000.0   8.998e-08   
70100.0   9.324e-08   
70200.0   8.876e-08   
70300.0   1.026e-07   
70400.0   9.848e-08   
70500.0   7.75e-08   
70600.0   7.826e-08   
70700.0   9.174e-08   
70800.0   9.073e-08   
70900.0   7.089e-08   
71000.0   8.789e-08   
71100.0   8.628e-08   
71200.0   8.46e-08   
71300.0   8.16e-08   
71400.0   5.715e-08   
71500.0   7.668e-08   
71600.0   7.428e-08   
71700.0   7.417e-08   
71800.0   6.224e-08   
71900.0   6.238e-08   
72000.0   6.368e-08   
72100.0   6.292e-08   
72200.0   5.759e-08   
72300.0   5.173e-08   
72400.0   5.642e-08   
72500.0   5.826e-08   
72600.0   5.751e-08   
72700.0   5.714e-08   
72800.0   5.821e-08   
72900.0   6.17e-08   
73000.0   6.407e-08   
73100.0   6.58e-08   
73200.0   6.834e-08   
73300.0   6.647e-08   
73400.0   6.351e-08   
73500.0   8.188e-08   
73600.0   8.198e-08   
73700.0   8.268e-08   
73800.0   6.877e-08   
73900.0   8.339e-08   
74000.0   8.237e-08   
74100.0   5.352e-08   
74200.0   7.111e-08   
74300.0   7.327e-08   
74400.0   7.151e-08   
74500.0   6.23e-08   
74600.0   6.537e-08   
74700.0   6.826e-08   
74800.0   6.416e-08   
74900.0   5.963e-08   
75000.0   7.334e-08   
75100.0   7.202e-08   
75200.0   7.155e-08   
75300.0   5.896e-08   
75400.0   5.473e-08   
75500.0   6.833e-08   
75600.0   5.563e-08   
75700.0   5.53e-08   
75800.0   4.998e-08   
75900.0   5.193e-08   
76000.0   5.192e-08   
76100.0   4.8e-08   
76200.0   4.156e-08   
76300.0   4.379e-08   
76400.0   4.52e-08   
76500.0   4.33e-08   
76600.0   4.188e-08   
76700.0   4.162e-08   
76800.0   4.198e-08   
76900.0   4.013e-08   
77000.0   3.636e-08   
77100.0   3.293e-08   
77200.0   5.063e-08   
77300.0   5.152e-08   
77400.0   5.265e-08   
77500.0   5.378e-08   
77600.0   5.495e-08   
77700.0   4.441e-08   
77800.0   4.363e-08   
77900.0   5.949e-08   
78000.0   4.823e-08   
78100.0   5.045e-08   
78200.0   5.312e-08   
78300.0   5.471e-08   
78400.0   5.335e-08   
78500.0   5.072e-08   
78600.0   6.131e-08   
78700.0   6.126e-08   
78800.0   5.147e-08   
78900.0   5.065e-08   
79000.0   4.444e-08   
79100.0   5.84e-08   
79200.0   5.67e-08   
79300.0   5.507e-08   
79400.0   4.322e-08   
79500.0   4.406e-08   
79600.0   4.243e-08   
79700.0   3.656e-08   
79800.0   3.88e-08   
79900.0   4.115e-08   
80000.0   4.213e-08   
