# QE corrected
# ING Filter Throughput Data
#Serial Number : 214
#Filtername    : WFCSloanR
#Filtersystem  : Sloan Gunn
#Passband      : r
#FWHM          : 1347
#Cosmetics     :
#Measured      : 2005-03-02 12:03:19
#Wavelength Throughput
#nm %
#wave   resp   
5005.0   0.000163775   
5010.0   0.000409375   
5015.0   -0.0002455875   
5020.0   0.00040925   
5025.0   -0.000163675   
5030.0   0.00016365   
5035.0   8.18125e-05   
5040.0   0.0017178   
5045.0   0.00032715   
5050.0   8.1775e-05   
5055.0   8.17625e-05   
5060.0   0.0   
5065.0   0.0006539   
5070.0   0.00081725   
5075.0   8.17125e-05   
5080.0   0.0   
5085.0   -0.000163375   
5090.0   0.000245025   
5095.0   -8.16625e-05   
5100.0   8.165e-05   
5105.0   0.0002449125   
5110.0   8.1625e-05   
5115.0   -0.0007345125   
5120.0   -8.16e-05   
5125.0   -8.15875e-05   
5130.0   0.000244725   
5135.0   -0.00032625   
5140.0   -0.00040775   
5145.0   -0.0002446125   
5150.0   -0.000244575   
5155.0   -0.000163025   
5160.0   0.0002445   
5165.0   -8.14875e-05   
5170.0   -0.00048885   
5175.0   0.000162925   
5180.0   -0.0004887   
5185.0   0.00032575   
5190.0   -0.000244275   
5195.0   -0.0004070625   
5200.0   -0.0005698   
5205.0   -0.000488325   
5210.0   8.1375e-05   
5215.0   -0.000162725   
5220.0   -0.0001627   
5225.0   -8.13375e-05   
5230.0   0.00081325   
5235.0   0.000162625   
5240.0   -0.0001626   
5245.0   0.00032515   
5250.0   0.000406375   
5255.0   8.12625e-05   
5260.0   0.000325   
5265.0   0.00032495   
5270.0   0.0003249   
5275.0   0.00032485   
5280.0   -0.000406   
5285.0   0.000487125   
5290.0   -0.00016235   
5295.0   0.0   
5300.0   -8.115e-05   
5305.0   0.000162275   
5310.0   0.0   
5315.0   0.0007300125   
5320.0   -0.0001622   
5325.0   8.10875e-05   
5330.0   0.0003243   
5335.0   0.0002431875   
5340.0   0.00024315   
5345.0   0.0002431125   
5350.0   8.1025e-05   
5355.0   0.0005670875   
5360.0   -0.000243   
5365.0   0.00097185   
5370.0   0.000404875   
5375.0   0.0012144375   
5380.0   0.0009714   
5385.0   0.0020234375   
5390.0   0.0029133   
5395.0   0.005340225   
5400.0   0.0094653   
5405.0   0.01650105   
5410.0   0.028710625   
5415.0   0.0469811125   
5420.0   0.07882875   
5425.0   0.1268340375   
5430.0   0.2001227   
5435.0   0.3071683125   
5440.0   0.4566816   
5445.0   0.6618919875   
5450.0   0.9486216   
5455.0   1.311098425   
5460.0   1.7869975   
5465.0   2.384824275   
5470.0   3.124784025   
5475.0   4.0084248875   
5480.0   5.0314836   
5485.0   6.2017219375   
5490.0   7.549647175   
5495.0   8.9399862   
5500.0   10.4788545   
5505.0   12.0666761375   
5510.0   13.74285375   
5515.0   15.411981425   
5520.0   17.1062216   
5525.0   18.830558775   
5530.0   20.6255885   
5535.0   22.3663251875   
5540.0   24.18473475   
5545.0   26.0032231625   
5550.0   27.843531875   
5555.0   29.6729623875   
5560.0   31.474534   
5565.0   33.2533301375   
5570.0   35.013465375   
5575.0   36.574873075   
5580.0   38.06322805   
5585.0   39.4057681875   
5590.0   40.62508025   
5595.0   41.6992688875   
5600.0   42.6065328   
5605.0   43.401117165   
5610.0   44.16487581   
5615.0   44.86795056   
5620.0   45.54974394   
5625.0   46.1975077875   
5630.0   46.931667885   
5635.0   47.68105641   
5640.0   48.44742504   
5645.0   49.2872181675   
5650.0   50.1305412   
5655.0   51.02251662   
5660.0   51.90685179   
5665.0   52.832979045   
5670.0   53.717894685   
5675.0   54.633529125   
5680.0   55.47884556   
5685.0   56.3288792475   
5690.0   56.70957543   
5695.0   58.044200445   
5700.0   58.8647865   
5705.0   59.6232773925   
5710.0   60.389721945   
5715.0   61.10468049   
5720.0   61.81419552   
5725.0   62.47156635   
5730.0   63.14515836   
5735.0   63.7774271175   
5740.0   64.31336595   
5745.0   64.89149772   
5750.0   65.3068932   
5755.0   65.7388611075   
5760.0   66.11671104   
5765.0   66.50254182   
5770.0   66.82634733   
5775.0   67.1196268875   
5780.0   67.3856694   
5785.0   67.611528315   
5790.0   67.87399851   
5795.0   68.05980876   
5800.0   68.288274   
5805.0   68.537253125   
5810.0   68.77581305   
5815.0   69.008808375   
5820.0   69.2330682   
5825.0   69.461141875   
5830.0   69.6688239   
5835.0   69.82646585   
5840.0   69.9801089   
5845.0   70.041920025   
5850.0   70.13838975   
5855.0   70.1356742   
5860.0   70.03656   
5865.0   70.030208325   
5870.0   69.98656705   
5875.0   69.867137625   
5880.0   69.7217458   
5885.0   69.664521475   
5890.0   69.5842368   
5895.0   69.521848625   
5900.0   69.571113   
5905.0   69.513795   
5910.0   69.61708365   
5915.0   69.70640215   
5920.0   69.8538783   
5925.0   70.00014275   
5930.0   70.19849915   
5935.0   70.34264175   
5940.0   70.4919584   
5945.0   70.66385335   
5950.0   70.7204925   
5955.0   70.772121775   
5960.0   70.7838818   
5965.0   70.71954135   
5970.0   70.6829123   
5975.0   70.531892875   
5980.0   70.3845708   
5985.0   70.2055053   
5990.0   70.03518   
5995.0   69.841312875   
6000.0   69.6182745   
6005.0   69.43017753   
6010.0   69.25538196   
6015.0   69.07419176   
6020.0   69.02973628   
6025.0   68.852413   
6030.0   68.75939928   
6035.0   68.76406425   
6040.0   68.73834058   
6045.0   68.73193924   
6050.0   68.718641   
6055.0   68.68579024   
6060.0   68.77320192   
6065.0   68.79741336   
6070.0   68.942688   
6075.0   68.99206335   
6080.0   69.04231662   
6085.0   69.14055269   
6090.0   69.10553708   
6095.0   69.06663145   
6100.0   68.9934593   
6105.0   68.91549509   
6110.0   68.7584072   
6115.0   68.527267   
6120.0   68.30359592   
6125.0   68.0432235   
6130.0   67.74627012   
6135.0   67.5467936   
6140.0   67.29207936   
6145.0   67.08039352   
6150.0   66.8928296   
6155.0   66.79234663   
6160.0   66.67362194   
6165.0   66.67782248   
6170.0   66.7687774   
6175.0   66.8622752   
6180.0   66.99183568   
6185.0   67.17544868   
6190.0   67.33661952   
6195.0   67.49022148   
6200.0   67.6378865   
6205.0   67.7295225325   
6210.0   67.80352521   
6215.0   67.8280320325   
6220.0   67.69645646   
6225.0   67.59682545   
6230.0   67.34982961   
6235.0   67.097006325   
6240.0   66.82934952   
6245.0   66.494282085   
6250.0   66.168710675   
6255.0   65.8687045725   
6260.0   65.54447093   
6265.0   65.134461875   
6270.0   64.784561475   
6275.0   64.473800875   
6280.0   64.16827076   
6285.0   63.8275956075   
6290.0   63.56052552   
6295.0   63.3145164575   
6300.0   63.07183575   
6305.0   62.8313301375   
6310.0   62.619495495   
6315.0   62.4387452325   
6320.0   62.27870976   
6325.0   62.1451759   
6330.0   62.088570315   
6335.0   62.04559361   
6340.0   62.12271609   
6345.0   62.156074005   
6350.0   62.296846625   
6355.0   62.5129301125   
6360.0   62.78508678   
6365.0   63.0557691375   
6370.0   63.356066305   
6375.0   63.7167097125   
6380.0   63.9849811   
6385.0   64.2873962925   
6390.0   64.494524655   
6395.0   64.6351522175   
6400.0   64.691808   
6405.0   64.623197595   
6410.0   64.44257994   
6415.0   64.197797515   
6420.0   63.7547634   
6425.0   63.276292625   
6430.0   62.65718448   
6435.0   61.98056568   
6440.0   61.33814008   
6445.0   60.593701415   
6450.0   59.9102434   
6455.0   59.197203585   
6460.0   58.5622422   
6465.0   57.930560155   
6470.0   57.35227391   
6475.0   56.91632325   
6480.0   56.42017688   
6485.0   56.143592105   
6490.0   55.87233558   
6495.0   55.69762429   
6500.0   55.6128267   
6505.0   55.51983471   
6510.0   55.62269037   
6515.0   55.688125075   
6520.0   55.87203952   
6525.0   56.0547195   
6530.0   56.34279952   
6535.0   56.61867651   
6540.0   56.9264684   
6545.0   57.27119613   
6550.0   57.6486118   
6555.0   57.996807925   
6560.0   58.3644496   
6565.0   58.660070875   
6570.0   59.00816625   
6575.0   59.277651875   
6580.0   59.61162786   
6585.0   59.72044166   
6590.0   59.85634448   
6595.0   60.001022505   
6600.0   60.0142214   
6605.0   59.898557265   
6610.0   59.69409073   
6615.0   59.54176033   
6620.0   59.29652358   
6625.0   58.951860875   
6630.0   58.55977767   
6635.0   58.20430854   
6640.0   57.77893712   
6645.0   57.447077395   
6650.0   56.9805009   
6655.0   56.579836   
6660.0   56.22074168   
6665.0   55.829714355   
6670.0   55.54274572   
6675.0   55.276689375   
6680.0   55.00488396   
6685.0   54.80295265   
6690.0   54.63471954   
6695.0   54.514154985   
6700.0   54.4453186   
6705.0   54.32239778   
6710.0   54.26280972   
6715.0   54.27180872   
6720.0   54.2970576   
6725.0   54.263145525   
6730.0   54.29195052   
6735.0   54.28974615   
6740.0   54.33202362   
6745.0   54.34832754   
6750.0   54.2893101   
6755.0   54.167176575   
6760.0   54.04089196   
6765.0   53.845681415   
6770.0   53.57085285   
6775.0   53.21362515   
6780.0   52.77678716   
6785.0   52.10125371   
6790.0   51.42012669   
6795.0   50.603866225   
6800.0   49.708512   
6805.0   48.720679   
6810.0   47.53884375   
6815.0   46.4269966875   
6820.0   45.181549   
6825.0   43.9926831875   
6830.0   42.751171875   
6835.0   41.5537675   
6840.0   40.5109705   
6845.0   39.4754338125   
6850.0   38.535719375   
6855.0   37.7470611875   
6860.0   37.0216425   
6865.0   36.411694375   
6870.0   35.86563475   
6875.0   35.424229875   
6880.0   35.014502   
6885.0   34.6801378125   
6890.0   34.239641625   
6895.0   33.889871125   
6900.0   33.43595475   
6905.0   32.8561861875   
6910.0   32.2244925   
6915.0   31.4431439375   
6920.0   30.624072   
6925.0   29.6904628125   
6930.0   28.568942375   
6935.0   27.4878984375   
6940.0   26.13377275   
6945.0   24.7347066875   
6950.0   23.104574625   
6955.0   21.28134425   
6960.0   19.28451   
6965.0   17.1257355   
6970.0   14.77115575   
6975.0   12.5899164375   
6980.0   10.4341815   
6985.0   8.4987390625   
6990.0   6.792127625   
6995.0   5.411545125   
7000.0   4.269246   
7005.0   3.375391555   
7010.0   2.655916485   
7015.0   2.1205035   
7020.0   1.69295042   
7025.0   1.3727373   
7030.0   1.11768072   
7035.0   0.9258658575   
7040.0   0.7737312   
7045.0   0.6497251675   
7050.0   0.55376595   
7055.0   0.4779333825   
7060.0   0.41529974   
7065.0   0.3661010375   
7070.0   0.32193428   
7075.0   0.288332375   
7080.0   0.25883286   
7085.0   0.23075804   
7090.0   0.210659225   
7095.0   0.1923051325   
7100.0   0.17357805   
7105.0   0.1585641425   
7110.0   0.14351165   
7115.0   0.1306630425   
7120.0   0.1191294   
7125.0   0.1063978125   
7130.0   0.09416555   
7135.0   0.08554436   
7140.0   0.07545276   
7145.0   0.0689608925   
7150.0   0.06032265   
7155.0   0.0542630375   
7160.0   0.0474747   
7165.0   0.04359258   
7170.0   0.03723157   
7175.0   0.0349786375   
7180.0   0.03232774   
7185.0   0.02894508   
7190.0   0.026840935   
7195.0   0.023938565   
7200.0   0.0216432   
7205.0   0.02075303   
7210.0   0.01926474   
7215.0   0.01817907   
7220.0   0.01663   
7225.0   0.0154164   
7230.0   0.01553292   
7235.0   0.01538392   
7240.0   0.0139104   
7245.0   0.01409421   
7250.0   0.0136166   
7255.0   0.01280982   
7260.0   0.01345584   
7265.0   0.01442991   
7270.0   0.01322982   
7275.0   0.01400475   
7280.0   0.01287328   
7285.0   0.01469664   
7290.0   0.0140911   
7295.0   0.01486169   
7300.0   0.0154998   
7305.0   0.01561387   
7310.0   0.01514032   
7315.0   0.01655826   
7320.0   0.01634512   
7325.0   0.01788875   
7330.0   0.01767456   
7335.0   0.01836953   
7340.0   0.01757164   
7345.0   0.01735836   
7350.0   0.0175337   
7355.0   0.01732084   
7360.0   0.01575264   
7365.0   0.01528413   
7370.0   0.01455892   
7375.0   0.0129987   
7380.0   0.01266316   
7385.0   0.01181464   
7390.0   0.01173762   
7395.0   0.00999492   
7400.0   0.009152   
7405.0   0.0088831425   
7410.0   0.008359765   
7415.0   0.0076467   
7420.0   0.006363   
7425.0   0.0062902125   
7430.0   0.006027275   
7435.0   0.0061451925   
7440.0   0.00638926   
7445.0   0.00555874   
7450.0   0.00542445   
7455.0   0.005668425   
7460.0   0.00496831   
7465.0   0.00527499   
7470.0   0.00514181   
7475.0   0.0048211625   
7480.0   0.00481404   
7485.0   0.0048069175   
7490.0   0.00423878   
7495.0   0.004854915   
7500.0   0.00341825   
