# QE corrected
# ING Filter Throughput Data
#Serial Number : 197
#Filtername    : WFCH6568
#Filtersystem  : Narrow Band
#Passband      : Halpha 6568/95
#FWHM          : 95
#Cosmetics     : The substrate coating is damaged around the very edge of the filter (~3-4mm).
#Measured      : 2005-03-02 12:01:32
#Wavelength Throughput
#nm %
#wave   resp   
6300.0   0.0004599   
6302.0   0.000306548   
6304.0   7.6624e-05   
6306.0   7.6611e-05   
6308.0   0.00038299   
6310.0   0.00061268   
6312.0   0.000536004   
6314.0   0.000459354   
6316.0   0.000459276   
6318.0   0.000459198   
6320.0   0.00045912   
6322.0   0.000229521   
6324.0   3.595218e-05   
6326.0   7.6481e-05   
6328.0   0.00038234   
6330.0   0.00061164   
6332.0   0.000687978   
6334.0   0.000687861   
6336.0   0.000687744   
6338.0   0.000611224   
6340.0   0.00053473   
6342.0   0.000458262   
6344.0   0.000458184   
6346.0   0.000534457   
6348.0   0.000687042   
6350.0   0.0009159   
6352.0   0.000686808   
6354.0   0.000457794   
6356.0   0.000534002   
6358.0   0.000915276   
6360.0   0.00129642   
6362.0   0.001067458   
6364.0   0.00076234   
6366.0   0.000533547   
6368.0   0.000304832   
6370.0   3.20019e-05   
6372.0   0.00038091   
6374.0   0.000685521   
6376.0   0.00076156   
6378.0   0.000609144   
6380.0   0.00045678   
6382.0   0.000532819   
6384.0   0.000684936   
6386.0   0.000837001   
6388.0   0.00114117   
6390.0   0.00136917   
6392.0   0.00152104   
6394.0   0.001596819   
6396.0   0.001748598   
6398.0   0.001824312   
6400.0   0.001976   
6402.0   0.002051514   
6404.0   0.002126992   
6406.0   0.002050542   
6408.0   0.0018982   
6410.0   0.00174593   
6412.0   0.002124976   
6414.0   0.002427968   
6416.0   0.002806672   
6418.0   0.003261034   
6420.0   0.00363936   
6422.0   0.003865902   
6424.0   0.004092336   
6426.0   0.004318662   
6428.0   0.004696376   
6430.0   0.00507391   
6432.0   0.0056784   
6434.0   0.006358296   
6436.0   0.007113544   
6438.0   0.008095406   
6440.0   0.00900116   
6442.0   0.009755238   
6444.0   0.010508956   
6446.0   0.011413486   
6448.0   0.012544288   
6450.0   0.013599   
6452.0   0.015181932   
6454.0   0.016764108   
6456.0   0.018572016   
6458.0   0.020605494   
6460.0   0.022638   
6462.0   0.025952048   
6464.0   0.029264512   
6466.0   0.033329452   
6468.0   0.038146328   
6470.0   0.0429609   
6472.0   0.050787248   
6474.0   0.058534518   
6476.0   0.069817932   
6478.0   0.084634952   
6480.0   0.0993696   
6482.0   0.126741208   
6484.0   0.154099712   
6486.0   0.198295736   
6488.0   0.259317184   
6490.0   0.3203094   
6492.0   0.455391976   
6494.0   0.590560132   
6496.0   0.842124288   
6498.0   1.21015098   
6500.0   1.5780763   
6502.0   2.48634043   
6504.0   3.394469144   
6506.0   4.972623006   
6508.0   7.22069472   
6510.0   9.4677622   
6512.0   13.421993168   
6514.0   17.37559937   
6516.0   22.0707942   
6518.0   27.507566598   
6520.0   32.94172464   
6522.0   38.30413378   
6524.0   43.66560924   
6526.0   48.357671318   
6528.0   52.380351904   
6530.0   56.40109209   
6532.0   58.410142308   
6534.0   60.418892376   
6536.0   61.715549064   
6538.0   62.300102606   
6540.0   62.88444224   
6542.0   62.863394434   
6544.0   62.842349472   
6546.0   62.860517504   
6548.0   62.917795512   
6550.0   62.97511325   
6552.0   63.306370104   
6554.0   63.637609074   
6556.0   63.96122126   
6558.0   64.277212062   
6560.0   64.59311744   
6562.0   65.018588622   
6564.0   65.44399584   
6566.0   65.830446854   
6568.0   66.177820768   
6570.0   66.52509358   
6572.0   66.5470589   
6574.0   66.569005824   
6576.0   66.51934616   
6578.0   66.398131856   
6580.0   66.27696842   
6582.0   65.850376756   
6584.0   65.423909504   
6586.0   64.972890486   
6588.0   64.497411992   
6590.0   64.02215623   
6592.0   63.789695552   
6594.0   63.557191522   
6596.0   63.117377336   
6598.0   62.470181216   
6600.0   61.8232916   
6602.0   60.045755796   
6604.0   58.268596092   
6606.0   55.512577076   
6608.0   51.777904128   
6610.0   48.04551275   
6612.0   43.009954376   
6614.0   37.975823928   
6616.0   32.677968824   
6618.0   27.116404856   
6620.0   21.5581419   
6622.0   17.487517016   
6624.0   13.418127088   
6626.0   10.09776111   
6628.0   7.526343552   
6630.0   4.95645539   
6632.0   3.78803316   
6634.0   2.619863262   
6636.0   1.797348812   
6638.0   1.32032889   
6640.0   0.84359312   
6642.0   0.66069248   
6644.0   0.477827112   
6646.0   0.3463618   
6648.0   0.266250608   
6650.0   0.1861872   
6652.0   0.152189076   
6654.0   0.11813763   
6656.0   0.091832832   
6658.0   0.073341314   
6660.0   0.05486084   
6662.0   0.046169304   
6664.0   0.03748296   
6666.0   0.030565184   
6668.0   0.02534094   
6670.0   0.02011982   
6672.0   0.01725088   
6674.0   0.014457042   
6676.0   0.012178424   
6678.0   0.01026788   
6680.0   0.0084318   
6682.0   0.007476396   
6684.0   0.006521564   
6686.0   0.005640558   
6688.0   0.00476008   
6690.0   0.00395334   
6692.0   0.003366648   
6694.0   0.002780308   
6696.0   0.002413752   
6698.0   0.002266782   
6700.0   0.0021199   
6702.0   0.00182695   
6704.0   0.00146112   
6706.0   0.001314612   
6708.0   0.001387228   
6710.0   0.0014598   
6712.0   0.001532328   
6714.0   0.001531866   
6716.0   0.001385556   
6718.0   0.000947726   
6720.0   0.00058304   
6722.0   0.00072858   
6724.0   0.000946868   
6726.0   0.001019396   
6728.0   0.000873504   
6730.0   0.00080047   
6732.0   0.000945724   
6734.0   0.00109089   
6736.0   0.000945152   
6738.0   0.000654138   
6740.0   0.0003633   
6742.0   0.000508466   
6744.0   0.00072616   
6746.0   0.00072594   
6748.0   0.000508004   
6750.0   0.00036275   
6752.0   0.000217584   
6754.0   7.2506e-05   
6756.0   -7.2484e-05   
6758.0   -7.2462e-05   
6760.0   -0.00014488   
6762.0   3.548482e-05   
6764.0   0.000217188   
6766.0   0.000289496   
6768.0   0.00036176   
6770.0   0.00036165   
6772.0   0.00036154   
6774.0   0.000289144   
6776.0   0.000289056   
6778.0   0.00036121   
6780.0   0.00043332   
6782.0   0.000288792   
6784.0   0.000216528   
6786.0   0.000216462   
6788.0   0.000216396   
6790.0   0.00021633   
6792.0   0.000216264   
6794.0   0.000216198   
6796.0   0.000144088   
6798.0   0.000144044   
6800.0   7.2e-05   
